Milliseconds,GyroX,GyroY,GyroZ
1431.372549019608,-1.893503727369542,0.0516506922257721,-1.4158679446219382
1436.2745098039215,-1.91160809371672,0.046858359957401494,-1.4334398296059638
1441.1764705882354,-1.9201277955271565,0.04419595314164004,-1.4419595314164004
1446.078431372549,-1.9323748668796592,0.03780617678381257,-1.4456869009584665
1450.9803921568628,-1.9440894568690097,0.028221512247071354,-1.4435569755058573
1455.8823529411766,-1.9510117145899895,0.013844515441959531,-1.4627263045793397
1460.7843137254902,-1.9712460063897763,-0.02023429179978701,-1.4563365282215122
1465.686274509804,-1.9739084132055378,-0.05591054313099041,-1.4600638977635783
1470.5882352941176,-2.0079872204472844,-0.13099041533546327,-1.4547390841320553
1475.4901960784314,-2.027156549520767,-0.19329073482428116,-1.446751863684771
1480.3921568627452,-2.0489882854100108,-0.23162939297124602,-1.4398296059637912
1485.2941176470588,-2.083067092651757,-0.2364217252396166,-1.4313099041533546
1490.1960784313726,-2.12087326943557,-0.20979765708200213,-1.4201277955271565
1495.0980392156862,-2.176251331203408,-0.19808306709265175,-1.4132055378061767
1500,-2.253993610223642,-0.21299254526091588,-1.4052183173588924
1504.9019607843138,-2.3157614483493076,-0.2369542066027689,-1.4110756123535677
1509.8039215686276,-2.3876464323748667,-0.19701810436634717,-1.428115015974441
1514.7058823529412,-2.4515441959531414,-0.12619808306709265,-1.4552715654952078
1519.6078431372548,-2.507454739084132,-0.07401490947816826,-1.4973375931842385
1524.5098039215686,-2.5724174653887113,-0.061235356762513314,-1.5143769968051117
1529.4117647058824,-2.6070287539936103,-0.0617678381256656,-1.527689030883919
1534.3137254901962,-2.6299254526091587,-0.07667731629392971,-1.549520766773163
1539.2156862745098,-2.625133120340788,-0.10170394036208733,-1.5724174653887113
1544.1176470588234,-2.5905218317358893,-0.12513312034078808,-1.6080937167199147
1549.0196078431372,-2.5543130990415337,-0.13631522896698617,-1.628860489882854
1553.921568627451,-2.5085197018104366,-0.14536741214057508,-1.6501597444089458
1558.8235294117649,-2.4552715654952078,-0.13525026624068157,-1.6714589989350372
1563.7254901960785,-2.3982960596379126,-0.10436634717784878,-1.687433439829606
1568.627450980392,-2.3407880724174652,-0.06496272630457935,-1.7135250266240682
1573.5294117647059,-2.2779552715654954,-0.038338658146964855,-1.7492012779552715
1578.4313725490197,-2.213525026624068,-0.01810436634717785,-1.7689030883919064
1583.3333333333335,-2.1735889243876465,-0.006389776357827476,-1.7917997870074547
1588.235294117647,-2.123003194888179,-0.014909478168264111,-1.8146964856230032
1593.1372549019607,-2.0793397231096913,-0.008519701810436636,-1.834398296059638
1598.0392156862745,-2.053248136315229,-0.01437699680511182,-1.849307774227902
1602.9411764705883,-2.0175718849840254,-0.013312034078807242,-1.8578274760383386
1607.843137254902,-1.9978700745473907,-0.013312034078807242,-1.862087326943557
1612.7450980392157,-1.9882854100106497,-0.019701810436634718,-1.8487752928647498
1617.6470588235295,-1.9829605963791268,-0.03780617678381257,-1.8482428115015974
1622.549019607843,-1.979765708200213,-0.04046858359957402,-1.8264110756123535
1627.450980392157,-1.996272630457934,-0.05378061767838126,-1.8146964856230032
1632.3529411764707,-2.0021299254526093,-0.059637912673056445,-1.808839190628328
1637.2549019607843,-2.0228966986155483,-0.05644302449414271,-1.783280085197018
1642.1568627450981,-2.0378061767838127,-0.054313099041533544,-1.7678381256656017
1647.0588235294117,-2.0638977635782747,-0.04472843450479233,-1.7593184238551651
1651.9607843137255,-2.0857294994675186,-0.020766773162939296,-1.744408945686901
1656.8627450980393,-2.1017039403620874,0.001597444089456869,-1.7172523961661341
1661.7647058823532,-2.1128860489882855,0.013312034078807242,-1.70234291799787
1666.6666666666667,-2.110756123535676,0.026624068157614485,-1.687433439829606
1671.5686274509803,-2.1118210862619806,0.0308839190628328,-1.654419595314164
1676.4705882352941,-2.1166134185303513,0.0362087326943557,-1.6299254526091587
1681.372549019608,-2.1118210862619806,0.03727369542066028,-1.6080937167199147
1686.2745098039218,-2.1075612353567625,0.03354632587859425,-1.579339723109691
1691.1764705882354,-2.0947816826411074,0.026091586794462194,-1.554845580404686
1696.078431372549,-2.087859424920128,0.011714589989350373,-1.523961661341853
1700.9803921568628,-2.087859424920128,-0.005857294994675187,-1.5047923322683705
1705.8823529411766,-2.086261980830671,-0.03514376996805112,-1.4845580404685836
1710.7843137254904,-2.0926517571884986,-0.06922257720979766,-1.4600638977635783
1715.686274509804,-2.0915867944621938,-0.10383386581469649,-1.4574014909478168
1720.5882352941176,-2.0969116080937167,-0.134185303514377,-1.4499467518636848
1725.4901960784314,-2.108626198083067,-0.17145899893503727,-1.4456869009584665
1730.3921568627452,-2.127263045793397,-0.19914802981895632,-1.446751863684771
1735.294117647059,-2.1395101171459,-0.2220447284345048,-1.4547390841320553
1740.1960784313726,-2.137380191693291,-0.2422790202342918,-1.4600638977635783
1745.0980392156862,-2.1501597444089455,-0.23003194888178913,-1.4712460063897763
1750,-2.142172523961661,-0.21831735889243875,-1.478168264110756
1754.9019607843138,-2.1480298189563367,-0.19755058572949946,-1.479765708200213
1759.8039215686276,-2.1384451544195953,-0.17465388711395102,-1.483493077742279
1764.7058823529412,-2.1277955271565494,-0.1288604898828541,-1.4733759318423856
1769.6078431372548,-2.104366347177849,-0.10436634717784878,-1.466986155484558
1774.5098039215686,-2.08839190628328,-0.08040468583599573,-1.4701810436634717
1779.4117647058824,-2.062300319488818,-0.06602768903088392,-1.4600638977635783
1784.3137254901962,-2.0319488817891376,-0.0724174653887114,-1.4675186368477102
1789.2156862745098,-2.0175718849840254,-0.07348242811501597,-1.4664536741214058
1794.1176470588234,-2.0026624068157615,-0.08572949946751864,-1.4659211927582534
1799.0196078431372,-2.000532481363152,-0.11128860489882854,-1.4866879659211927
1803.921568627451,-1.9829605963791268,-0.13631522896698617,-1.4882854100106497
1808.8235294117649,-1.9696485623003195,-0.16773162939297126,-1.5021299254526093
1813.7254901960785,-1.9536741214057507,-0.19914802981895632,-1.5117145899893503
1818.6274509803923,-1.9526091586794463,-0.23855165069222578,-1.5234291799787008
1823.5294117647059,-1.9376996805111821,-0.2630457933972311,-1.5314164004259851
1828.4313725490197,-1.922790202342918,-0.2976570820021299,-1.5340788072417466
1833.3333333333335,-1.9201277955271565,-0.3285410010649627,-1.523961661341853
1838.235294117647,-1.906283280085197,-0.3333333333333333,-1.5143769968051117
1843.137254901961,-1.8887113951011714,-0.345580404685836,-1.5191693290734825
1848.0392156862745,-1.876996805111821,-0.3301384451544196,-1.492545260915868
1852.9411764705883,-1.8663471778487752,-0.32960596379126733,-1.4808306709265175
1857.843137254902,-1.8551650692225772,-0.3248136315228967,-1.4755058572949946
1862.7450980392157,-1.8562300319488818,-0.32161874334398294,-1.4414270500532482
1867.6470588235295,-1.826943556975506,-0.29233226837060705,-1.428647497337593
1872.549019607843,-1.8248136315228967,-0.28008519701810436,-1.4142705005324814
1877.450980392157,-1.7949946751863686,-0.2795527156549521,-1.3993610223642172
1882.3529411764707,-1.7854100106496273,-0.2641107561235357,-1.376464323748669
1887.2549019607845,-1.7678381256656017,-0.2625133120340788,-1.3631522896698616
1892.1568627450981,-1.7492012779552715,-0.26996805111821087,-1.3386581469648562
1897.0588235294117,-1.7300319488817892,-0.2779552715654952,-1.3184238551650693
1901.9607843137255,-1.715122470713525,-0.2944621938232162,-1.3029818956336527
1906.8627450980393,-1.70926517571885,-0.31309904153354634,-1.2843450479233227
1911.7647058823532,-1.6863684771033014,-0.3136315228966986,-1.2657082002129925
1916.6666666666667,-1.6831735889243877,-0.32215122470713525,-1.2401490947816827
1921.5686274509803,-1.6757188498402555,-0.3285410010649627,-1.2124600638977636
1926.4705882352941,-1.6645367412140575,-0.3301384451544196,-1.1938232161874334
1931.372549019608,-1.66506922257721,-0.31629392971246006,-1.1629392971246006
1936.2745098039218,-1.6554845580404687,-0.29499467518636846,-1.140042598509052
1941.1764705882354,-1.6347177848775294,-0.2736954206602769,-1.1144834930777423
1946.078431372549,-1.6443024494142704,-0.25931842385516507,-1.0894568690095847
1950.9803921568628,-1.643237486687966,-0.2268370607028754,-1.071352502662407
1955.8823529411766,-1.6331203407880723,-0.1847710330138445,-1.0559105431309903
1960.7843137254904,-1.6437699680511182,-0.1554845580404686,-1.0266240681576144
1965.686274509804,-1.6384451544195953,-0.12300319488817892,-1.0106496272630459
1970.5882352941176,-1.6336528221512248,-0.0926517571884984,-1.0010649627263046
1975.4901960784314,-1.6363152289669862,-0.06443024494142705,-0.9707135250266241
1980.3921568627452,-1.626730564430245,-0.05005324813631523,-0.9579339723109691
1985.294117647059,-1.621405750798722,-0.038338658146964855,-0.946751863684771
1990.1960784313726,-1.6128860489882855,-0.05910543130990415,-0.9259850905218318
1995.0980392156862,-1.6043663471778489,-0.06389776357827476,-0.9068157614483493
2000,-1.5894568690095847,-0.08519701810436635,-0.8982960596379127
2005.050505050505,-1.573482428115016,-0.11128860489882854,-0.8828541001064962
2010.1010101010102,-1.5521831735889244,-0.13258785942492013,-0.8780617678381256
2015.1515151515152,-1.5511182108626198,-0.1645367412140575,-0.8626198083067093
2020.20202020202,-1.5319488817891374,-0.18157614483493079,-0.8620873269435569
2025.2525252525252,-1.520234291799787,-0.19275825346112885,-0.8375931842385517
2030.3030303030303,-1.523961661341853,-0.20021299254526093,-0.8146964856230032
2035.3535353535353,-1.5010649627263046,-0.19808306709265175,-0.8178913738019169
2040.4040404040404,-1.496272630457934,-0.1900958466453674,-0.8056443024494143
2045.4545454545455,-1.4802981895633653,-0.16613418530351437,-0.7806176783812566
2050.5050505050503,-1.4712460063897763,-0.1395101171458999,-0.7806176783812566
2055.5555555555557,-1.464856230031949,-0.10489882854100106,-0.7752928647497338
2060.6060606060605,-1.4398296059637912,-0.06922257720979766,-0.7864749733759319
2065.656565656566,-1.4376996805111821,-0.05484558040468584,-0.7816826411075612
2070.7070707070707,-1.428647497337593,-0.03194888178913738,-0.7838125665601704
2075.757575757576,-1.4052183173588924,-0.023429179978700747,-0.7875399361022364
2080.808080808081,-1.38604898828541,-0.023429179978700747,-0.7699680511182109
2085.8585858585857,-1.3652822151224706,-0.028221512247071354,-0.784877529286475
2090.909090909091,-1.3375931842385516,-0.04472843450479233,-0.7838125665601704
2095.959595959596,-1.3093716719914803,-0.0670926517571885,-0.7689030883919062
2101.010101010101,-1.2790202342917998,-0.09052183173588925,-0.7657082002129926
2106.060606060606,-1.2385516506922258,-0.08892438764643237,-0.7550585729499467
2111.1111111111113,-1.1980830670926517,-0.11554845580404687,-0.7492012779552716
2116.161616161616,-1.1703940362087326,-0.13471778487752928,-0.7294994675186368
2121.212121212121,-1.1384451544195953,-0.14909478168264112,-0.7257720979765708
2126.2626262626263,-1.117678381256656,-0.1501597444089457,-0.7172523961661342
2131.313131313131,-1.0830670926517572,-0.1395101171458999,-0.7087326943556975
2136.3636363636365,-1.0591054313099042,-0.1134185303514377,-0.7028753993610224
2141.4141414141413,-1.040468583599574,-0.09371671991480299,-0.6932907348242812
2146.4646464646466,-1.003727369542066,-0.05910543130990415,-0.7044728434504792
2151.5151515151515,-0.9904153354632588,-0.026624068157614485,-0.6869009584664537
2156.5656565656564,-0.9648562300319489,0.005324813631522897,-0.6815761448349308
2161.6161616161617,-0.939297124600639,0.026624068157614485,-0.6805111821086262
2166.6666666666665,-0.902555910543131,0.04952076677316294,-0.6751863684771033
2171.717171717172,-0.8626198083067093,0.06336528221512247,-0.667199148029819
2176.7676767676767,-0.838125665601704,0.07827476038338659,-0.6586794462193823
2181.818181818182,-0.8162939297124601,0.06283280085197018,-0.6533546325878594
2186.868686868687,-0.7736954206602769,0.05378061767838126,-0.6512247071352503
2191.9191919191917,-0.7470713525026624,0.043663471778487756,-0.6522896698615549
2196.969696969697,-0.7199148029818956,0.03461128860489883,-0.6336528221512248
2202.020202020202,-0.7103301384451545,0.025026624068157616,-0.6219382321618744
2207.070707070707,-0.6714589989350372,0.012779552715654952,-0.6107561235356762
2212.121212121212,-0.663471778487753,-0.01597444089456869,-0.5851970181043663
2217.1717171717173,-0.6384451544195953,-0.03141640042598509,-0.56975505857295
2222.222222222222,-0.6150159744408946,-0.03248136315228967,-0.5425985090521832
2227.272727272727,-0.5990415335463258,-0.05005324813631523,-0.5175718849840255
2232.3232323232323,-0.5814696485623003,-0.054313099041533544,-0.5095846645367412
2237.373737373737,-0.5617678381256656,-0.06070287539936102,-0.4701810436634718
2242.4242424242425,-0.5484558040468583,-0.0825346112886049,-0.4478168264110756
2247.4747474747473,-0.527689030883919,-0.09318423855165069,-0.43184238551650694
2252.5252525252527,-0.5159744408945687,-0.11288604898828541,-0.4110756123535676
2257.5757575757575,-0.49627263045793396,-0.11714589989350373,-0.3913738019169329
2262.6262626262624,-0.4744408945686901,-0.14323748668796593,-0.3796592119275825
2267.6767676767677,-0.4627263045793397,-0.16134185303514376,-0.37326943556975506
2272.7272727272725,-0.43610223642172524,-0.18903088391906284,-0.35303514376996803
2277.777777777778,-0.42438764643237487,-0.20607028753993611,-0.3466453674121406
2282.8282828282827,-0.3993610223642173,-0.21884984025559107,-0.33706070287539935
2287.878787878788,-0.38604898828541,-0.20926517571884984,-0.3285410010649627
2292.929292929293,-0.35197018104366345,-0.1954206602768903,-0.3184238551650692
2297.979797979798,-0.3359957401490948,-0.16826411075612355,-0.32161874334398294
2303.030303030303,-0.31789137380191695,-0.14270500532481364,-0.3104366347177849
2308.0808080808083,-0.2832800851970181,-0.1080937167199148,-0.30244941427050054
2313.131313131313,-0.2614483493077742,-0.09904153354632587,-0.2928647497337593
2318.181818181818,-0.24014909478168264,-0.08839190628328009,-0.27209797657082
2323.2323232323233,-0.2071352502662407,-0.077209797657082,-0.24068157614483493
2328.282828282828,-0.17252396166134185,-0.0670926517571885,-0.22630457933972312
2333.3333333333335,-0.1496272630457934,-0.0463258785942492,-0.2018104366347178
2338.3838383838383,-0.13152289669861555,-0.025026624068157616,-0.16293929712460065
2343.4343434343436,-0.11714589989350373,-0.001597444089456869,-0.1182108626198083
2348.4848484848485,-0.11288604898828541,0.0308839190628328,-0.077209797657082
2353.5353535353534,-0.12726304579339723,0.056975505857294995,-0.06017039403620873
2358.5858585858587,-0.14376996805111822,0.07827476038338659,-0.03407880724174654
2363.6363636363635,-0.16719914802981894,0.07827476038338659,-0.007454739084132056
2368.686868686869,-0.21778487752928646,0.05218317358892439,0.007987220447284345
2373.7373737373737,-0.25026624068157616,0.05005324813631523,0.022364217252396165
2378.787878787879,-0.2880724174653887,0.014909478168264111,0.012247071352502662
2383.838383838384,-0.32161874334398294,-0.01757188498402556,0.009052183173588925
2388.8888888888887,-0.33865814696485624,-0.06496272630457935,-0.003194888178913738
2393.939393939394,-0.34930777422790205,-0.13045793397231098,-0.01437699680511182
2398.989898989899,-0.35676251331203407,-0.20234291799787008,-0.025559105431309903
2404.040404040404,-0.345580404685836,-0.24600638977635783,-0.026091586794462194
2409.090909090909,-0.3306709265175719,-0.30244941427050054,-0.026624068157614485
2414.1414141414143,-0.3061767838125666,-0.35835995740149096,-0.01650692225772098
2419.191919191919,-0.2870074547390841,-0.3919062832800852,-0.025559105431309903
2424.242424242424,-0.26677316293929715,-0.41054313099041534,-0.026091586794462194
2429.2929292929293,-0.2571884984025559,-0.4222577209797657,-0.023961661341853034
2434.343434343434,-0.2321618743343983,-0.40308839190628326,-0.03727369542066028
2439.3939393939395,-0.23429179978700745,-0.3871139510117146,-0.05324813631522897
2444.4444444444443,-0.23855165069222578,-0.34930777422790205,-0.0724174653887114
2449.4949494949497,-0.2571884984025559,-0.3194888178913738,-0.09744408945686901
2454.5454545454545,-0.2673056443024494,-0.3019169329073482,-0.10063897763578275
2459.5959595959594,-0.29179978700745474,-0.2784877529286475,-0.1134185303514377
2464.6464646464647,-0.32215122470713525,-0.23322683706070288,-0.12566560170394037
2469.6969696969695,-0.34717784877529284,-0.1964856230031949,-0.16293929712460065
2474.747474747475,-0.3817891373801917,-0.13525026624068157,-0.18210862619808307
2479.7979797979797,-0.40521831735889247,-0.07135250266240682,-0.2007454739084132
2484.848484848485,-0.43130990415335463,-0.012779552715654952,-0.2220447284345048
2489.89898989899,-0.45740149094781685,0.03780617678381257,-0.24121405750798722
2494.9494949494947,-0.46751863684771033,0.08572949946751864,-0.24600638977635783
2500,-0.48722044728434505,0.12193823216187434,-0.25505857294994677
2505.050505050505,-0.4728434504792332,0.15335463258785942,-0.26038338658146964
2510.10101010101,-0.48136315228966986,0.17678381256656017,-0.26357827476038337
2515.151515151515,-0.48083067092651754,0.18157614483493079,-0.26517571884984026
2520.2020202020203,-0.48668796592119273,0.17678381256656017,-0.27103301384451545
2525.252525252525,-0.4787007454739084,0.16613418530351437,-0.2736954206602769
2530.30303030303,-0.4696485623003195,0.1336528221512247,-0.27422790202342917
2535.3535353535353,-0.4739084132055378,0.11395101171458999,-0.26996805111821087
2540.4040404040406,-0.45260915867944623,0.09052183173588925,-0.2838125665601704
2545.4545454545455,-0.45580404685835996,0.06549520766773163,-0.2912673056443025
2550.5050505050503,-0.4478168264110756,0.03727369542066028,-0.2832800851970181
2555.5555555555557,-0.4435569755058573,0.012247071352502662,-0.29233226837060705
2560.6060606060605,-0.4424920127795527,-0.03301384451544196,-0.2933972310969116
2565.6565656565654,-0.4478168264110756,-0.06336528221512247,-0.29499467518636846
2570.7070707070707,-0.46325878594249204,-0.09105431309904154,-0.2933972310969116
2575.757575757576,-0.4792332268370607,-0.09691160809371673,-0.27689030883919064
2580.808080808081,-0.49787007454739085,-0.10649627263045794,-0.2832800851970181
2585.8585858585857,-0.5383386581469649,-0.1187433439829606,-0.27209797657082
2590.909090909091,-0.5734824281150159,-0.15175718849840256,-0.26677316293929715
2595.959595959596,-0.5979765708200213,-0.1703940362087327,-0.26996805111821087
2601.0101010101007,-0.6389776357827476,-0.23855165069222578,-0.2678381256656017
2606.060606060606,-0.6805111821086262,-0.34451544195953143,-0.24866879659211927
2611.1111111111113,-0.7188498402555911,-0.45527156549520764,-0.2417465388711395
2616.161616161616,-0.7465388711395101,-0.5553780617678381,-0.2268370607028754
2621.212121212121,-0.7933972310969116,-0.6309904153354633,-0.22630457933972312
2626.2626262626263,-0.8386581469648562,-0.6597444089456869,-0.20447284345047922
2631.313131313131,-0.873269435569755,-0.6538871139510117,-0.21458998935037274
2636.3636363636365,-0.9179978700745474,-0.6144834930777423,-0.22364217252396165
2641.4141414141413,-0.9813631522896699,-0.5559105431309904,-0.2470713525026624
2646.4646464646466,-1.0287539936102237,-0.4941427050053248,-0.2747603833865815
2651.5151515151515,-1.049520766773163,-0.43130990415335463,-0.325346112886049
2656.5656565656564,-1.0596379126730564,-0.38977635782747605,-0.3615548455804047
2661.6161616161617,-1.0521831735889244,-0.3546325878594249,-0.40468583599574015
2666.6666666666665,-1.0319488817891374,-0.3306709265175719,-0.43077742279020237
2671.717171717172,-0.9984025559105432,-0.2933972310969116,-0.4627263045793397
2676.7676767676767,-0.95580404685836,-0.2476038338658147,-0.47231096911608095
2681.818181818182,-0.9329073482428115,-0.1847710330138445,-0.4882854100106496
2686.868686868687,-0.8871139510117146,-0.1182108626198083,-0.49307774227902024
2691.9191919191917,-0.853035143769968,-0.06869009584664537,-0.5149094781682642
2696.969696969697,-0.8301384451544196,-0.008519701810436636,-0.5212992545260916
2702.020202020202,-0.7965921192758253,0.05378061767838126,-0.5431309904153354
2707.070707070707,-0.7736954206602769,0.09957401490947816,-0.5708200212992546
2712.121212121212,-0.7673056443024494,0.15228966986155484,-0.5830670926517572
2717.1717171717173,-0.7550585729499467,0.1810436634717785,-0.5947816826411075
2722.222222222222,-0.7358892438764644,0.20766773162939298,-0.6059637912673056
2727.272727272727,-0.7172523961661342,0.23908413205537807,-0.6309904153354633
2732.3232323232323,-0.707667731629393,0.24973375931842384,-0.625133120340788
2737.373737373737,-0.6906283280085197,0.24866879659211927,-0.6309904153354633
2742.4242424242425,-0.667199148029819,0.2417465388711395,-0.6352502662406816
2747.4747474747473,-0.6437699680511182,0.24121405750798722,-0.6235356762513312
2752.5252525252527,-0.6219382321618744,0.23482428115015974,-0.626730564430245
2757.5757575757575,-0.5969116080937167,0.2167199148029819,-0.61395101171459
2762.6262626262624,-0.5617678381256656,0.1964856230031949,-0.5979765708200213
2767.6767676767677,-0.5436634717784877,0.17145899893503727,-0.5782747603833865
2772.7272727272725,-0.5250266240681576,0.15228966986155484,-0.560702875399361
2777.777777777778,-0.49787007454739085,0.12247071352502663,-0.536741214057508
2782.8282828282827,-0.4728434504792332,0.1027689030883919,-0.5271565495207667
2787.878787878788,-0.46485623003194887,0.06815761448349308,-0.5074547390841321
2792.929292929293,-0.4504792332268371,0.025559105431309903,-0.4792332268370607
2797.9797979797977,-0.4483493077742279,-0.007987220447284345,-0.4547390841320554
2803.030303030303,-0.45154419595314166,-0.029818956336528223,-0.4249201277955272
2808.0808080808083,-0.4637912673056443,-0.04898828541001065,-0.4036208732694356
2813.131313131313,-0.4802981895633653,-0.06762513312034078,-0.38391906283280086
2818.181818181818,-0.4952076677316294,-0.07614483493077742,-0.3647497337593184
2823.2323232323233,-0.5159744408945687,-0.09318423855165069,-0.3562300319488818
2828.282828282828,-0.5425985090521832,-0.09904153354632587,-0.3450479233226837
2833.333333333333,-0.5713525026624068,-0.11714589989350373,-0.3306709265175719
2838.3838383838383,-0.5985090521831736,-0.14643237486687966,-0.32161874334398294
2843.4343434343436,-0.6203407880724174,-0.16666666666666666,-0.3141640042598509
2848.4848484848485,-0.6458998935037273,-0.1959531416400426,-0.3003194888178914
2853.5353535353534,-0.663471778487753,-0.20820021299254526,-0.2955271565495208
2858.5858585858587,-0.6842385516506923,-0.22417465388711394,-0.29073482428115016
2863.6363636363635,-0.7002129925452609,-0.24281150159744408,-0.2827476038338658
2868.6868686868684,-0.7092651757188498,-0.2523961661341853,-0.2736954206602769
2873.7373737373737,-0.7231096911608094,-0.24547390841320554,-0.26091586794462196
2878.787878787879,-0.7422790202342918,-0.2539936102236422,-0.25452609158679446
2883.838383838384,-0.7454739084132055,-0.2374866879659212,-0.2582534611288605
2888.8888888888887,-0.775825346112886,-0.22630457933972312,-0.24494142705005326
2893.939393939394,-0.7795527156549521,-0.2108626198083067,-0.2630457933972311
2898.989898989899,-0.8029818956336529,-0.18903088391906284,-0.2577209797657082
2904.0404040404037,-0.8189563365282215,-0.1847710330138445,-0.26624068157614483
2909.090909090909,-0.8333333333333334,-0.16187433439829607,-0.2795527156549521
2914.1414141414143,-0.8439829605963791,-0.16347177848775293,-0.2870074547390841
2919.191919191919,-0.8519701810436635,-0.14696485623003194,-0.2955271565495208
2924.242424242424,-0.8626198083067093,-0.13738019169329074,-0.30564430244941426
2929.2929292929293,-0.8647497337593184,-0.12140575079872204,-0.30670926517571884
2934.343434343434,-0.8642172523961661,-0.10702875399361023,-0.308839190628328
2939.3939393939395,-0.8668796592119276,-0.0777422790202343,-0.32694355697550587
2944.4444444444443,-0.8594249201277955,-0.07401490947816826,-0.3248136315228967
2949.4949494949497,-0.8514376996805112,-0.06230031948881789,-0.33280085197018106
2954.5454545454545,-0.8445154419595314,-0.0516506922257721,-0.3391906283280085
2959.5959595959594,-0.8338658146964856,-0.04046858359957402,-0.34291799787007454
2964.6464646464647,-0.8205537806176784,-0.029286474973375932,-0.34185303514376997
2969.6969696969695,-0.8056443024494143,-0.027689030883919063,-0.3466453674121406
2974.747474747475,-0.7880724174653887,-0.02023429179978701,-0.3562300319488818
2979.7979797979797,-0.7673056443024494,-0.022896698615548456,-0.35303514376996803
2984.848484848485,-0.7587859424920128,-0.028221512247071354,-0.34930777422790205
2989.89898989899,-0.7460063897763578,-0.03514376996805112,-0.3556975505857295
2994.9494949494947,-0.7374866879659212,-0.04472843450479233,-0.35303514376996803
3000,-0.722577209797657,-0.05591054313099041,-0.3498402555910543
3004.9751243781093,-0.7199148029818956,-0.0617678381256656,-0.3546325878594249
3009.950248756219,-0.7103301384451545,-0.061235356762513314,-0.3610223642172524
3014.9253731343283,-0.7023429179978701,-0.07401490947816826,-0.36421725239616615
3019.9004975124376,-0.6916932907348243,-0.077209797657082,-0.3679446219382322
3024.8756218905473,-0.6789137380191693,-0.07294994675186368,-0.36687965921192756
3029.8507462686566,-0.6666666666666666,-0.07135250266240682,-0.37007454739084134
3034.8258706467664,-0.6474973375931843,-0.0724174653887114,-0.36847710330138445
3039.8009950248756,-0.6315228966986155,-0.07561235356762513,-0.3711395101171459
3044.776119402985,-0.617678381256656,-0.07987220447284345,-0.37486687965921195
3049.7512437810947,-0.6001064962726305,-0.06496272630457935,-0.35782747603833864
3054.726368159204,-0.5857294994675186,-0.06815761448349308,-0.36900958466453676
3059.7014925373132,-0.5777422790202343,-0.06762513312034078,-0.3738019169329074
3064.676616915423,-0.5521831735889244,-0.06815761448349308,-0.3722044728434505
3069.6517412935323,-0.5489882854100107,-0.0617678381256656,-0.3738019169329074
3074.626865671642,-0.5287539936102237,-0.05750798722044728,-0.36261980830670926
3079.6019900497513,-0.5218317358892439,-0.05644302449414271,-0.36847710330138445
3084.5771144278606,-0.5239616613418531,-0.04898828541001065,-0.36261980830670926
3089.5522388059703,-0.5079872204472844,-0.04206602768903089,-0.35782747603833864
3094.5273631840796,-0.5101171458998935,-0.03354632587859425,-0.3556975505857295
3099.502487562189,-0.4936102236421725,-0.019701810436634718,-0.35356762513312034
3104.4776119402986,-0.4968051118210863,0.005324813631522897,-0.3450479233226837
3109.452736318408,-0.4802981895633653,0.005857294994675187,-0.3285410010649627
3114.427860696517,-0.46485623003194887,0.012779552715654952,-0.3226837060702875
3119.402985074627,-0.45633652822151227,0.024494142705005325,-0.31576144834930775
3124.378109452736,-0.43610223642172524,0.0308839190628328,-0.3104366347177849
3129.353233830846,-0.42864749733759316,0.0362087326943557,-0.31203407880724177
3134.3283582089553,-0.4073482428115016,0.04845580404685836,-0.30670926517571884
3139.3034825870645,-0.4020234291799787,0.06017039403620873,-0.2939297124600639
3144.2786069651743,-0.37167199148029817,0.06602768903088392,-0.28913738019169327
3149.2537313432836,-0.37167199148029817,0.0724174653887114,-0.27582534611288606
3154.228855721393,-0.3423855165069223,0.06975505857294995,-0.25505857294994677
3159.2039800995026,-0.32055378061767836,0.06762513312034078,-0.2523961661341853
3164.179104477612,-0.3029818956336528,0.05910543130990415,-0.23535676251331203
3169.154228855721,-0.2955271565495208,0.04952076677316294,-0.22257720979765708
3174.129353233831,-0.2795527156549521,0.04153354632587859,-0.21405750798722045
3179.10447761194,-0.2657082002129925,0.026091586794462194,-0.20607028753993611
3184.07960199005,-0.25505857294994677,0.01597444089456869,-0.20234291799787008
3189.054726368159,-0.2470713525026624,0.006389776357827476,-0.1853035143769968
3194.0298507462685,-0.2417465388711395,-0.005324813631522897,-0.17838125665601703
3199.0049751243782,-0.2273695420660277,-0.01597444089456869,-0.16134185303514376
3203.9800995024875,-0.20766773162939298,-0.03301384451544196,-0.14696485623003194
3208.955223880597,-0.19329073482428116,-0.03407880724174654,-0.13684771033013846
3213.9303482587065,-0.18210862619808307,-0.03567625133120341,-0.1187433439829606
3218.905472636816,-0.17252396166134185,-0.03567625133120341,-0.10170394036208733
3223.880597014925,-0.1650692225772098,-0.0308839190628328,-0.0878594249201278
3228.855721393035,-0.17252396166134185,-0.007987220447284345,-0.06815761448349308
3233.830845771144,-0.16293929712460065,-0.005857294994675187,-0.05378061767838126
3238.805970149254,-0.1698615548455804,0.0026624068157614484,-0.04153354632587859
3243.781094527363,-0.1757188498402556,0.013844515441959531,-0.03301384451544196
3248.7562189054725,-0.18423855165069222,0.03035143769968051,-0.01703940362087327
3253.731343283582,-0.1853035143769968,0.045260915867944625,-0.01810436634717785
3258.7064676616915,-0.18423855165069222,0.0463258785942492,-0.009584664536741214
3263.681592039801,-0.17838125665601703,0.055378061767838126,-0.009584664536741214
3268.6567164179105,-0.17625133120340788,0.0463258785942492,-0.005857294994675187
3273.63184079602,-0.17891373801916932,0.019701810436634718,0.0010649627263045794
3278.606965174129,-0.16240681576144836,0.004259850905218318,0.01437699680511182
3283.582089552239,-0.16080937167199147,-0.02875399361022364,0.023429179978700747
3288.557213930348,-0.15814696485623003,-0.05484558040468584,0.0308839190628328
3293.532338308458,-0.14217252396166133,-0.08413205537806177,0.03407880724174654
3298.507462686567,-0.12513312034078808,-0.10969116080937168,0.038338658146964855
3303.4825870646764,-0.1182108626198083,-0.13258785942492013,0.04206602768903089
3308.457711442786,-0.11608093716719915,-0.154419595314164,0.03727369542066028
3313.4328358208954,-0.10489882854100106,-0.17145899893503727,0.03727369542066028
3318.407960199005,-0.10010649627263046,-0.1810436634717785,0.04153354632587859
3323.3830845771145,-0.09211927582534611,-0.1703940362087327,0.03780617678381257
3328.3582089552237,-0.08093716719914804,-0.16080937167199147,0.03354632587859425
3333.3333333333335,-0.08200212992545261,-0.15175718849840256,0.03727369542066028
3338.3084577114428,-0.07827476038338659,-0.14004259850905218,0.03248136315228967
3343.283582089552,-0.07454739084132056,-0.11395101171458999,0.046858359957401494
3348.258706467662,-0.08040468583599573,-0.09584664536741214,0.04739084132055378
3353.233830845771,-0.08093716719914804,-0.08200212992545261,0.038338658146964855
3358.2089552238804,-0.0724174653887114,-0.05058572949946752,0.028221512247071354
3363.18407960199,-0.0777422790202343,-0.05484558040468584,0.03141640042598509
3368.1592039800994,-0.07667731629392971,-0.05644302449414271,0.023429179978700747
3373.134328358209,-0.06549520766773163,-0.05378061767838126,0.03035143769968051
3378.1094527363184,-0.07082002129925452,-0.06656017039403621,0.03141640042598509
3383.0845771144277,-0.0516506922257721,-0.08093716719914804,0.029286474973375932
3388.0597014925374,-0.06230031948881789,-0.09424920127795527,0.03780617678381257
3393.0348258706467,-0.03780617678381257,-0.10915867944621938,0.03301384451544196
3398.009950248756,-0.0362087326943557,-0.12087326943556975,0.03567625133120341
3402.9850746268658,-0.026624068157614485,-0.14217252396166133,0.038338658146964855
3407.960199004975,-0.01863684771033014,-0.13099041533546327,0.042598509052183174
3412.9353233830843,-0.022364217252396165,-0.14536741214057508,0.039936102236421724
3417.910447761194,-0.010649627263045794,-0.14323748668796593,0.03194888178913738
3422.8855721393033,-0.010649627263045794,-0.15228966986155484,0.0362087326943557
3427.860696517413,-0.0010649627263045794,-0.15654952076677317,0.03727369542066028
3432.8358208955224,0.014909478168264111,-0.16719914802981894,0.03887113951011715
3437.8109452736317,0.01597444089456869,-0.15708200212992546,0.03035143769968051
3442.7860696517414,0.021831735889243878,-0.1501597444089457,0.03194888178913738
3447.7611940298507,0.020766773162939296,-0.154419595314164,0.03035143769968051
3452.73631840796,0.038338658146964855,-0.1501597444089457,0.022896698615548456
3457.7114427860697,0.04153354632587859,-0.14749733759318423,0.025559105431309903
3462.686567164179,0.05378061767838126,-0.154419595314164,0.026624068157614485
3467.6616915422883,0.056975505857294995,-0.14589989350372737,0.03301384451544196
3472.636815920398,0.061235356762513314,-0.14589989350372737,0.04153354632587859
3477.6119402985073,0.05005324813631523,-0.1395101171458999,0.04419595314164004
3482.587064676617,0.052715654952076675,-0.13578274760383385,0.041001064962726305
3487.5621890547263,0.045260915867944625,-0.12300319488817892,0.04153354632587859
3492.5373134328356,0.04313099041533546,-0.12034078807241747,0.051118210862619806
3497.5124378109454,0.0362087326943557,-0.10915867944621938,0.05058572949946752
3502.4875621890546,0.036741214057507986,-0.09158679446219382,0.058040468583599576
3507.4626865671644,0.03141640042598509,-0.0825346112886049,0.05750798722044728
3512.4378109452737,0.03514376996805112,-0.08040468583599573,0.06443024494142705
3517.412935323383,0.03780617678381257,-0.08146964856230032,0.06869009584664537
3522.3880597014922,0.036741214057507986,-0.08146964856230032,0.07401490947816826
3527.363184079602,0.03461128860489883,-0.077209797657082,0.08359957401490947
3532.3383084577113,0.03727369542066028,-0.09105431309904154,0.08732694355697551
3537.313432835821,0.0463258785942492,-0.09211927582534611,0.10756123535676251
3542.2885572139303,0.04472843450479233,-0.09371671991480299,0.10596379126730564
3547.2636815920396,0.03194888178913738,-0.09850905218317359,0.12726304579339723
3552.2388059701493,0.029818956336528223,-0.09957401490947816,0.1299254526091587
3557.2139303482586,0.024494142705005325,-0.09691160809371673,0.14004259850905218
3562.1890547263683,0.026091586794462194,-0.09424920127795527,0.13525026624068157
3567.1641791044776,0.0154419595314164,-0.09637912673056442,0.15601703940362088
3572.139303482587,0.024494142705005325,-0.0825346112886049,0.15867944621938232
3577.114427860696,0.0154419595314164,-0.08146964856230032,0.16293929712460065
3582.089552238806,0.025559105431309903,-0.0825346112886049,0.1592119275825346
3587.064676616915,0.021299254526091587,-0.07614483493077742,0.16293929712460065
3592.039800995025,0.023429179978700747,-0.07294994675186368,0.17358892438764642
3597.0149253731342,0.03248136315228967,-0.0777422790202343,0.17252396166134185
3601.9900497512435,0.03301384451544196,-0.07561235356762513,0.1698615548455804
3606.9651741293533,0.042598509052183174,-0.07667731629392971,0.1592119275825346
3611.9402985074626,0.04046858359957402,-0.07135250266240682,0.15335463258785942
3616.9154228855723,0.04153354632587859,-0.07348242811501597,0.1448349307774228
3621.8905472636816,0.03887113951011715,-0.06017039403620873,0.14536741214057508
3626.865671641791,0.042598509052183174,-0.054313099041533544,0.12726304579339723
3631.8407960199006,0.043663471778487756,-0.0463258785942492,0.13525026624068157
3636.81592039801,0.042598509052183174,-0.0308839190628328,0.11448349307774228
3641.791044776119,0.0362087326943557,-0.03514376996805112,0.11714589989350373
3646.766169154229,0.04046858359957402,-0.021299254526091587,0.12300319488817892
3651.741293532338,0.039403620873269436,-0.023961661341853034,0.10436634717784878
3656.7164179104475,0.041001064962726305,-0.029818956336528223,0.0979765708200213
3661.6915422885572,0.03461128860489883,-0.04472843450479233,0.09478168264110756
3666.6666666666665,0.04046858359957402,-0.05484558040468584,0.08998935037273695
3671.6417910447763,0.04579339723109691,-0.07933972310969116,0.09424920127795527
3676.6169154228855,0.04739084132055378,-0.08519701810436635,0.08359957401490947
3681.592039800995,0.055378061767838126,-0.1033013844515442,0.07294994675186368
3686.5671641791046,0.06656017039403621,-0.12087326943556975,0.09637912673056442
3691.542288557214,0.07082002129925452,-0.1395101171458999,0.09105431309904154
3696.5174129353236,0.08359957401490947,-0.1389776357827476,0.08200212992545261
3701.492537313433,0.09478168264110756,-0.1496272630457934,0.09531416400425985
3706.467661691542,0.10702875399361023,-0.15867944621938232,0.10489882854100106
3711.4427860696514,0.1288604898828541,-0.1501597444089457,0.11235356762513313
3716.417910447761,0.1235356762513312,-0.14110756123535675,0.10969116080937168
3721.3930348258705,0.1299254526091587,-0.13578274760383385,0.11022364217252396
3726.36815920398,0.12779552715654952,-0.13152289669861555,0.1134185303514377
3731.3432835820895,0.1448349307774228,-0.13045793397231098,0.10063897763578275
3736.318407960199,0.14802981895633652,-0.13525026624068157,0.11128860489882854
3741.2935323383085,0.1645367412140575,-0.1336528221512247,0.11182108626198083
3746.268656716418,0.16879659211927583,-0.14164004259850904,0.12406815761448349
3751.2437810945275,0.18743343982960597,-0.1485623003194888,0.11448349307774228
3756.218905472637,0.19968051118210864,-0.14536741214057508,0.1283280085197018
3761.194029850746,0.20394036208732694,-0.16560170394036208,0.13631522896698617
3766.1691542288554,0.2161874334398296,-0.16400425985090522,0.14802981895633652
3771.144278606965,0.21778487752928646,-0.16879659211927583,0.16134185303514376
3776.1194029850744,0.22417465388711394,-0.17199148029818956,0.1703940362087327
3781.094527363184,0.22843450479233227,-0.16187433439829607,0.1757188498402556
3786.0696517412935,0.2326943556975506,-0.15335463258785942,0.18210862619808307
3791.0447761194027,0.22364217252396165,-0.15335463258785942,0.19275825346112885
3796.0199004975125,0.21458998935037274,-0.14802981895633652,0.19755058572949946
3800.9950248756218,0.21831735889243875,-0.1485623003194888,0.2018104366347178
3805.9701492537315,0.2220447284345048,-0.1336528221512247,0.2050053248136315
3810.945273631841,0.22630457933972312,-0.13471778487752928,0.21458998935037274
3815.92039800995,0.24068157614483493,-0.14589989350372737,0.2215122470713525
3820.8955223880594,0.25612353567625135,-0.1501597444089457,0.21938232161874335
3825.870646766169,0.27209797657082,-0.15495207667731628,0.23375931842385517
3830.8457711442784,0.2827476038338658,-0.15122470713525027,0.22843450479233227
3835.820895522388,0.2955271565495208,-0.15069222577209798,0.24068157614483493
3840.7960199004974,0.31735889243876464,-0.14057507987220447,0.22896698615548455
3845.7711442786067,0.3306709265175719,-0.12726304579339723,0.24920127795527156
3850.7462686567164,0.345580404685836,-0.12513312034078808,0.24653887113951012
3855.7213930348257,0.3556975505857295,-0.10862619808306709,0.24920127795527156
3860.6965174129355,0.35835995740149096,-0.09424920127795527,0.24813631522896698
3865.6716417910447,0.362087326943557,-0.0926517571884984,0.25559105431309903
3870.646766169154,0.369542066027689,-0.077209797657082,0.25931842385516507
3875.6218905472633,0.36687965921192756,-0.07082002129925452,0.24653887113951012
3880.597014925373,0.3679446219382322,-0.07082002129925452,0.24653887113951012
3885.5721393034823,0.37326943556975506,-0.06762513312034078,0.24653887113951012
3890.547263681592,0.3599574014909478,-0.06443024494142705,0.24440894568690097
3895.5223880597014,0.35782747603833864,-0.046858359957401494,0.24121405750798722
3900.4975124378107,0.3503727369542066,-0.04739084132055378,0.24121405750798722
3905.4726368159204,0.3514376996805112,-0.027689030883919063,0.23162939297124602
3910.4477611940297,0.34132055378061765,-0.011182108626198083,0.23375931842385517
3915.4228855721394,0.35356762513312034,0.003727369542066028,0.22257720979765708
3920.3980099502487,0.3439829605963791,0.02875399361022364,0.2215122470713525
3925.373134328358,0.34717784877529284,0.041001064962726305,0.21512247071352503
3930.3482587064677,0.34451544195953143,0.04579339723109691,0.21405750798722045
3935.323383084577,0.3610223642172524,0.051118210862619806,0.2050053248136315
3940.2985074626868,0.3615548455804047,0.05750798722044728,0.20394036208732694
3945.273631840796,0.37326943556975506,0.054313099041533544,0.20287539936102236
3950.2487562189053,0.37752928647497336,0.06017039403620873,0.19382321618743345
3955.2238805970146,0.38977635782747605,0.06389776357827476,0.19329073482428116
3960.1990049751244,0.3935037273695421,0.05378061767838126,0.19755058572949946
3965.1741293532336,0.4110756123535676,0.05218317358892439,0.1906283280085197
3970.1492537313434,0.402555910543131,0.0463258785942492,0.1906283280085197
3975.1243781094527,0.40415335463258784,0.046858359957401494,0.17252396166134185
3980.099502487562,0.4233226837060703,0.03301384451544196,0.1805111821086262
3985.0746268656717,0.42119275825346114,0.027689030883919063,0.1869009584664537
3990.049751243781,0.40308839190628326,0.027156549520766772,0.19435569755058574
3995.0248756218907,0.39829605963791265,0.024494142705005325,0.18849840255591055
4000,0.3977635782747604,0.038338658146964855,0.18157614483493079
4005.050505050505,0.40042598509052185,0.024494142705005325,0.18743343982960597
4010.10101010101,0.3903088391906283,0.01597444089456869,0.1757188498402556
4015.151515151515,0.3935037273695421,0.019169329073482427,0.1698615548455804
4020.2020202020203,0.37752928647497336,0.011182108626198083,0.17678381256656017
4025.252525252525,0.3801916932907348,0.0010649627263045794,0.1703940362087327
4030.3030303030305,0.3903088391906283,-0.0005324813631522897,0.16560170394036208
4035.3535353535353,0.3919062832800852,0.005857294994675187,0.14802981895633652
4040.40404040404,0.3961661341853035,0.005857294994675187,0.16240681576144836
4045.4545454545455,0.4158679446219382,0.012247071352502662,0.14802981895633652
4050.5050505050503,0.40628328008519704,0.021831735889243878,0.1443024494142705
4055.5555555555557,0.4057507987220447,0.03727369542066028,0.14004259850905218
4060.6060606060605,0.4073482428115016,0.03461128860489883,0.13631522896698617
4065.656565656566,0.40521831735889247,0.045260915867944625,0.12726304579339723
4070.7070707070707,0.4185303514376997,0.06017039403620873,0.11608093716719915
4075.757575757576,0.41214057507987223,0.0670926517571885,0.10436634717784878
4080.808080808081,0.4068157614483493,0.08519701810436635,0.10649627263045794
4085.8585858585857,0.3977635782747604,0.10010649627263046,0.09850905218317359
4090.909090909091,0.3961661341853035,0.11927582534611289,0.0979765708200213
4095.959595959596,0.38072417465388714,0.12779552715654952,0.07667731629392971
4101.010101010101,0.35676251331203407,0.1448349307774228,0.08572949946751864
4106.060606060606,0.35250266240681577,0.16879659211927583,0.08466453674121406
4111.111111111111,0.3343982960596379,0.17838125665601703,0.08679446219382321
4116.161616161616,0.308839190628328,0.2066027689030884,0.0878594249201278
4121.212121212121,0.3035143769968051,0.23056443024494142,0.08040468583599573
4126.262626262626,0.2939297124600639,0.24014909478168264,0.07880724174653887
4131.313131313132,0.29499467518636846,0.24068157614483493,0.07135250266240682
4136.363636363636,0.288604898828541,0.22257720979765708,0.0670926517571885
4141.414141414141,0.2955271565495208,0.20820021299254526,0.06922257720979766
4146.464646464647,0.30724174653887115,0.16879659211927583,0.06549520766773163
4151.515151515152,0.32374866879659214,0.1395101171458999,0.07401490947816826
4156.565656565656,0.3391906283280085,0.09531416400425985,0.07933972310969116
4161.616161616162,0.365814696485623,0.043663471778487756,0.08466453674121406
4166.666666666667,0.3977635782747604,-0.004259850905218318,0.08945686900958466
4171.717171717171,0.4020234291799787,-0.03461128860489883,0.07933972310969116
4176.767676767677,0.4164004259850905,-0.058040468583599576,0.08839190628328009
4181.818181818182,0.4291799787007455,-0.077209797657082,0.07614483493077742
4186.868686868687,0.43503727369542067,-0.07880724174653887,0.09105431309904154
4191.919191919192,0.4281150159744409,-0.06975505857294995,0.0670926517571885
4196.969696969697,0.4169329073482428,-0.06975505857294995,0.06815761448349308
4202.020202020202,0.4116080937167199,-0.07028753993610223,0.07082002129925452
4207.070707070707,0.4068157614483493,-0.06762513312034078,0.07667731629392971
4212.121212121212,0.40894568690095845,-0.08200212992545261,0.07667731629392971
4217.171717171717,0.4132055378061768,-0.1027689030883919,0.07561235356762513
4222.222222222223,0.4217252396166134,-0.11980830670926518,0.07561235356762513
4227.272727272727,0.4424920127795527,-0.12939297124600638,0.06815761448349308
4232.323232323232,0.4627263045793397,-0.14696485623003194,0.077209797657082
4237.373737373738,0.4898828541001065,-0.17305644302449413,0.07827476038338659
4242.424242424242,0.5207667731629393,-0.18370607028753994,0.09052183173588925
4247.474747474747,0.5404685835995741,-0.2012779552715655,0.09637912673056442
4252.525252525253,0.5713525026624068,-0.1964856230031949,0.10436634717784878
4257.575757575758,0.5867944621938233,-0.19755058572949946,0.1080937167199148
4262.626262626262,0.6166134185303515,-0.19382321618743345,0.11554845580404687
4267.676767676768,0.6272630457933972,-0.1751863684771033,0.10649627263045794
4272.727272727273,0.6368477103301384,-0.1443024494142705,0.11022364217252396
4277.777777777777,0.6368477103301384,-0.11022364217252396,0.10702875399361023
4282.828282828283,0.6315228966986155,-0.07294994675186368,0.09158679446219382
4287.878787878788,0.6230031948881789,-0.0154419595314164,0.09957401490947816
4292.929292929293,0.6001064962726305,0.027689030883919063,0.08998935037273695
4297.979797979798,0.582534611288605,0.06549520766773163,0.08892438764643237
4303.030303030303,0.5665601703940362,0.09957401490947816,0.09478168264110756
4308.080808080808,0.549520766773163,0.12140575079872204,0.08945686900958466
4313.131313131313,0.5388711395101171,0.14589989350372737,0.0777422790202343
4318.181818181818,0.5271565495207667,0.15335463258785942,0.08998935037273695
4323.232323232323,0.5117145899893504,0.16666666666666666,0.09052183173588925
4328.282828282829,0.5042598509052183,0.17305644302449413,0.09318423855165069
4333.333333333333,0.49627263045793396,0.18743343982960597,0.09531416400425985
4338.383838383838,0.4936102236421725,0.19488817891373802,0.10649627263045794
4343.434343434344,0.49148029818956335,0.20394036208732694,0.11395101171458999
4348.484848484848,0.48562300319488816,0.20234291799787008,0.12726304579339723
4353.535353535353,0.4861554845580405,0.20820021299254526,0.13578274760383385
4358.585858585859,0.4787007454739084,0.21938232161874335,0.14164004259850904
4363.636363636364,0.4653887113951012,0.2167199148029819,0.1496272630457934
4368.686868686868,0.45420660276890307,0.22790202342917998,0.14696485623003194
4373.737373737374,0.43184238551650694,0.22949946751863684,0.16080937167199147
4378.787878787879,0.4222577209797657,0.22470713525026625,0.16134185303514376
4383.838383838383,0.4036208732694356,0.20607028753993611,0.17784877529286475
4388.888888888889,0.3977635782747604,0.1959531416400426,0.1799787007454739
4393.939393939394,0.39456869009584666,0.18423855165069222,0.1847710330138445
4398.989898989899,0.3972310969116081,0.15814696485623003,0.1853035143769968
4404.040404040404,0.39989350372736954,0.14696485623003194,0.1853035143769968
4409.090909090909,0.40628328008519704,0.13152289669861555,0.1853035143769968
4414.141414141414,0.4206602768903088,0.12726304579339723,0.18583599574014908
4419.191919191919,0.43929712460063897,0.1027689030883919,0.18423855165069222
4424.242424242424,0.46219382321618746,0.10170394036208733,0.20287539936102236
4429.292929292929,0.4637912673056443,0.09691160809371673,0.20447284345047922
4434.343434343435,0.47550585729499467,0.08413205537806177,0.21458998935037274
4439.393939393939,0.4701810436634718,0.0979765708200213,0.21405750798722045
4444.444444444444,0.47550585729499467,0.09584664536741214,0.21884984025559107
4449.49494949495,0.46112886048988283,0.10170394036208733,0.21352502662406816
4454.545454545454,0.44675186368477104,0.09850905218317359,0.21991480298189564
4459.595959595959,0.4217252396166134,0.09637912673056442,0.21831735889243875
4464.646464646465,0.4073482428115016,0.10596379126730564,0.21725239616613418
4469.69696969697,0.3924387646432375,0.10862619808306709,0.21458998935037274
4474.747474747474,0.37167199148029817,0.11927582534611289,0.20926517571884984
4479.79797979798,0.3588924387646432,0.13791267305644303,0.2161874334398296
4484.848484848485,0.34717784877529284,0.13471778487752928,0.21725239616613418
4489.898989898989,0.33865814696485624,0.13578274760383385,0.2066027689030884
4494.949494949495,0.33865814696485624,0.14376996805111822,0.20766773162939298
4500,0.3423855165069223,0.1485623003194888,0.21299254526091588
4505.050505050505,0.34185303514376997,0.15069222577209798,0.21512247071352503
4510.10101010101,0.3503727369542066,0.14909478168264112,0.22097976570820022
4515.151515151515,0.35782747603833864,0.15282215122470713,0.22310969116080936
4520.20202020202,0.3663471778487753,0.15282215122470713,0.2326943556975506
4525.252525252525,0.38072417465388714,0.12939297124600638,0.24440894568690097
4530.30303030303,0.40415335463258784,0.12939297124600638,0.23588924387646432
4535.353535353535,0.4206602768903088,0.1235356762513312,0.25133120340788073
4540.404040404041,0.45101171458998934,0.1134185303514377,0.25559105431309903
4545.454545454545,0.4744408945686901,0.10436634717784878,0.26624068157614483
4550.50505050505,0.4941427050053248,0.08998935037273695,0.2854100106496273
4555.555555555556,0.5207667731629393,0.08093716719914804,0.3083067092651757
4560.606060606061,0.5362087326943556,0.06869009584664537,0.32694355697550587
4565.656565656565,0.5585729499467519,0.06496272630457935,0.34345047923322686
4570.707070707071,0.5591054313099042,0.04046858359957402,0.3599574014909478
4575.757575757576,0.580937167199148,0.04153354632587859,0.3711395101171459
4580.80808080808,0.5878594249201278,0.025559105431309903,0.38232161874334397
4585.858585858586,0.5969116080937167,0.020766773162939296,0.40521831735889247
4590.909090909091,0.6144834930777423,0.011182108626198083,0.41533546325878595
4595.959595959596,0.6315228966986155,0.0026624068157614484,0.4249201277955272
4601.010101010101,0.6650692225772098,-0.001597444089456869,0.45686900958466453
4606.060606060606,0.6975505857294995,-0.021299254526091587,0.49148029818956335
4611.111111111111,0.7385516506922257,-0.025026624068157616,0.5212992545260916
4616.161616161617,0.7944621938232161,-0.03248136315228967,0.5596379126730564
4621.212121212121,0.8264110756123536,-0.025559105431309903,0.6038338658146964
4626.262626262626,0.8839190628328009,-0.03407880724174654,0.6315228966986155
4631.313131313132,0.9446219382321619,-0.04419595314164004,0.6661341853035144
4636.363636363636,1.0058572949946751,-0.04898828541001065,0.691160809371672
4641.414141414141,1.06283280085197,-0.038338658146964855,0.7236421725239617
4646.464646464647,1.1283280085197018,-0.04206602768903089,0.7582534611288605
4651.515151515152,1.187433439829606,-0.029818956336528223,0.7902023429179978
4656.565656565656,1.2396166134185302,-0.022896698615548456,0.8141640042598509
4661.616161616162,1.2987220447284344,-0.009584664536741214,0.8572949946751863
4666.666666666667,1.3610223642172523,0,0.8972310969116081
4671.717171717171,1.3977635782747604,0.023429179978700747,0.9323748668796592
4676.767676767677,1.4440894568690097,0.026091586794462194,0.9653887113951012
4681.818181818182,1.4840255591054312,0.04792332268370607,1.0015974440894568
4686.868686868687,1.521831735889244,0.05324813631522897,1.0335463258785942
4691.919191919192,1.5431309904153354,0.0617678381256656,1.0564430244941427
4696.969696969697,1.571884984025559,0.07028753993610223,1.089989350372737
4702.020202020202,1.5862619808306708,0.08892438764643237,1.1128860489882855
4707.070707070707,1.606496272630458,0.0926517571884984,1.1336528221512248
4712.121212121212,1.623003194888179,0.09744408945686901,1.167199148029819
4717.171717171717,1.6437699680511182,0.09478168264110756,1.1938232161874334
4722.222222222223,1.6858359957401492,0.09158679446219382,1.2300319488817892
4727.272727272727,1.7097976570820022,0.09584664536741214,1.2651757188498403
4732.323232323232,1.7449414270500532,0.09424920127795527,1.2880724174653888
4737.373737373738,1.7902023429179978,0.09850905218317359,1.3232161874334398
4742.424242424242,1.8370607028753994,0.09691160809371673,1.3551650692225772
4747.474747474747,1.8839190628328009,0.10915867944621938,1.398828541001065
4752.525252525253,1.9382321618743343,0.10117145899893504,1.4361022364217253
4757.575757575758,1.9930777422790202,0.10063897763578275,1.4685835995740149
4762.626262626262,2.0410010649627264,0.09371671991480299,1.490947816826411
4767.676767676768,2.086261980830671,0.10010649627263046,1.5271565495207668
4772.727272727273,2.1533546325878596,0.08679446219382321,1.5543130990415335
4777.777777777777,2.2007454739084134,0.08466453674121406,1.571884984025559
4782.828282828283,2.264110756123536,0.08945686900958466,1.58839190628328
4787.878787878788,2.3024494142705003,0.08146964856230032,1.6182108626198084
4792.929292929293,2.3546325878594248,0.07933972310969116,1.6522896698615548
4797.979797979798,2.4041533546325877,0.08093716719914804,1.665601703940362
4803.030303030303,2.4510117145899892,0.0825346112886049,1.6810436634717785
4808.080808080808,2.507454739084132,0.07348242811501597,1.7140575079872205
4813.131313131313,2.549520766773163,0.0724174653887114,1.7342917997870075
4818.181818181818,2.5926517571884986,0.06017039403620873,1.7529286474973376
4823.232323232323,2.649094781682641,0.051118210862619806,1.7561235356762512
4828.282828282829,2.693290734824281,0.04845580404685836,1.7742279020234293
7343.434343434344,-0.07082002129925452,-0.34717784877529284,0.134185303514377
7348.484848484848,-0.077209797657082,-0.34611288604898827,0.14270500532481364
7353.535353535353,-0.09158679446219382,-0.33759318423855167,0.15495207667731628
7358.585858585859,-0.1033013844515442,-0.34185303514376997,0.15814696485623003
7363.636363636364,-0.12193823216187434,-0.33120340788072417,0.16080937167199147
7368.686868686868,-0.14589989350372737,-0.325346112886049,0.15335463258785942
7373.737373737374,-0.16560170394036208,-0.312566560170394,0.15335463258785942
7378.787878787879,-0.1847710330138445,-0.2832800851970181,0.1448349307774228
7383.838383838383,-0.19435569755058574,-0.25292864749733757,0.11501597444089456
7388.888888888889,-0.21565495207667731,-0.2066027689030884,0.12247071352502663
7393.939393939394,-0.2220447284345048,-0.14909478168264112,0.11182108626198083
7398.989898989899,-0.23056443024494142,-0.10702875399361023,0.09424920127795527
7404.040404040404,-0.22790202342917998,-0.0516506922257721,0.09371671991480299
7409.090909090909,-0.22044728434504793,-0.01703940362087327,0.08040468583599573
7414.141414141414,-0.21884984025559107,0.014909478168264111,0.07507987220447285
7419.191919191919,-0.2018104366347178,0.03727369542066028,0.06869009584664537
7424.242424242424,-0.20340788072417465,0.04313099041533546,0.05750798722044728
7429.292929292929,-0.1757188498402556,0.06602768903088392,0.05484558040468584
7434.343434343435,-0.14749733759318423,0.06443024494142705,0.05324813631522897
7439.393939393939,-0.11980830670926518,0.07188498402555911,0.04845580404685836
7444.444444444444,-0.10596379126730564,0.07135250266240682,0.04952076677316294
7449.49494949495,-0.06922257720979766,0.06602768903088392,0.04952076677316294
7454.545454545454,-0.056975505857294995,0.07614483493077742,0.05484558040468584
7459.595959595959,-0.039403620873269436,0.07880724174653887,0.06230031948881789
7464.646464646465,-0.025559105431309903,0.08572949946751864,0.06336528221512247
7469.69696969697,-0.01810436634717785,0.08998935037273695,0.058040468583599576
7474.747474747474,-0.01437699680511182,0.09211927582534611,0.06762513312034078
7479.79797979798,-0.003727369542066028,0.11395101171458999,0.06762513312034078
7484.848484848485,-0.010649627263045794,0.12140575079872204,0.059637912673056445
7489.898989898989,-0.01703940362087327,0.14164004259850904,0.07028753993610223
7494.949494949495,-0.01703940362087327,0.1597444089456869,0.06975505857294995
7500,-0.02875399361022364,0.1592119275825346,0.07348242811501597
7505.050505050505,-0.024494142705005325,0.16560170394036208,0.06815761448349308
7510.10101010101,-0.03141640042598509,0.15708200212992546,0.07561235356762513
7515.151515151515,-0.02875399361022364,0.1395101171458999,0.06815761448349308
7520.20202020202,-0.021299254526091587,0.12513312034078808,0.0825346112886049
7525.252525252525,-0.004259850905218318,0.09637912673056442,0.08519701810436635
7530.30303030303,0.006922257720979766,0.07667731629392971,0.09584664536741214
7535.353535353535,0.01597444089456869,0.05324813631522897,0.10649627263045794
7540.404040404041,0.036741214057507986,0.029818956336528223,0.11767838125665601
7545.454545454545,0.0463258785942492,0.01810436634717785,0.13045793397231098
7550.50505050505,0.052715654952076675,-0.003194888178913738,0.1496272630457934
7555.555555555556,0.045260915867944625,-0.03035143769968051,0.13844515441959532
7560.606060606061,0.04898828541001065,-0.04792332268370607,0.13578274760383385
7565.656565656565,0.052715654952076675,-0.06283280085197018,0.14057507987220447
7570.707070707071,0.055378061767838126,-0.07880724174653887,0.13205537806176784
7575.757575757576,0.046858359957401494,-0.0777422790202343,0.1389776357827476
7580.80808080808,0.04313099041533546,-0.07827476038338659,0.13152289669861555
7585.858585858586,0.03887113951011715,-0.08572949946751864,0.12193823216187434
7590.909090909091,0.03248136315228967,-0.07614483493077742,0.11554845580404687
7595.959595959596,0.02875399361022364,-0.06762513312034078,0.10489882854100106
7601.010101010101,0.03461128860489883,-0.0724174653887114,0.09904153354632587
7606.060606060606,0.029286474973375932,-0.06975505857294995,0.0878594249201278
7611.111111111111,0.03354632587859425,-0.07294994675186368,0.08572949946751864
7616.161616161617,0.029818956336528223,-0.06336528221512247,0.07454739084132056
7621.212121212121,0.026091586794462194,-0.05378061767838126,0.07135250266240682
7626.262626262626,0.027689030883919063,-0.051118210862619806,0.0617678381256656
7631.313131313132,0.027156549520766772,-0.046858359957401494,0.054313099041533544
7636.363636363636,0.0154419595314164,-0.06070287539936102,0.039936102236421724
7641.414141414141,0.03567625133120341,-0.046858359957401494,0.03727369542066028
7646.464646464647,0.021831735889243878,-0.058572949946751864,0.029818956336528223
7651.515151515152,0.03301384451544196,-0.058572949946751864,0.03567625133120341
7656.565656565656,0.036741214057507986,-0.06549520766773163,0.02875399361022364
7661.616161616162,0.042598509052183174,-0.06549520766773163,0.03407880724174654
7666.666666666667,0.046858359957401494,-0.0617678381256656,0.036741214057507986
7671.717171717171,0.04739084132055378,-0.06656017039403621,0.0362087326943557
7676.767676767677,0.046858359957401494,-0.04739084132055378,0.03567625133120341
7681.818181818182,0.05750798722044728,-0.04313099041533546,0.03887113951011715
7686.868686868687,0.041001064962726305,-0.010649627263045794,0.043663471778487756
7691.919191919192,0.04153354632587859,0.006922257720979766,0.05218317358892439
7696.969696969697,0.03461128860489883,0.03301384451544196,0.042598509052183174
7702.020202020202,0.024494142705005325,0.05058572949946752,0.056975505857294995
7707.070707070707,0.009584664536741214,0.06869009584664537,0.051118210862619806
7712.121212121212,0.0010649627263045794,0.09371671991480299,0.04898828541001065
7717.171717171717,-0.0154419595314164,0.09637912673056442,0.05484558040468584
7722.222222222223,-0.01703940362087327,0.10915867944621938,0.059637912673056445
7727.272727272727,-0.02875399361022364,0.10436634717784878,0.07294994675186368
7732.323232323232,-0.04046858359957402,0.08945686900958466,0.07294994675186368
7737.373737373738,-0.039403620873269436,0.08200212992545261,0.07987220447284345
7742.424242424242,-0.05484558040468584,0.06070287539936102,0.08306709265175719
7747.474747474747,-0.058040468583599576,0.039936102236421724,0.09158679446219382
7752.525252525253,-0.06230031948881789,0.01863684771033014,0.08572949946751864
7757.575757575758,-0.06336528221512247,-0.001597444089456869,0.09318423855165069
7762.626262626262,-0.06762513312034078,-0.012779552715654952,0.10063897763578275
7767.676767676768,-0.06869009584664537,-0.022896698615548456,0.1027689030883919
7772.727272727273,-0.07933972310969116,-0.03354632587859425,0.10489882854100106
7777.777777777777,-0.09105431309904154,-0.029818956336528223,0.11554845580404687
7782.828282828283,-0.08892438764643237,-0.022364217252396165,0.10862619808306709
7787.878787878788,-0.09850905218317359,-0.01650692225772098,0.10969116080937168
7792.929292929293,-0.1027689030883919,-0.01650692225772098,0.10436634717784878
7797.979797979798,-0.11182108626198083,-0.013844515441959531,0.09691160809371673
7803.030303030303,-0.10969116080937168,-0.006922257720979766,0.09158679446219382
7808.080808080808,-0.11022364217252396,0.005324813631522897,0.09850905218317359
7813.131313131313,-0.11288604898828541,-0.004259850905218318,0.09052183173588925
7818.181818181818,-0.11608093716719915,-0.014909478168264111,0.08519701810436635
7823.232323232323,-0.11288604898828541,-0.023961661341853034,0.08359957401490947
7828.282828282829,-0.11927582534611289,-0.045260915867944625,0.08519701810436635
7833.333333333333,-0.10862619808306709,-0.04952076677316294,0.07827476038338659
7838.383838383838,-0.11661341853035144,-0.05378061767838126,0.07454739084132056
7843.434343434344,-0.10170394036208733,-0.05591054313099041,0.06869009584664537
7848.484848484848,-0.09584664536741214,-0.06496272630457935,0.06283280085197018
7853.535353535353,-0.08892438764643237,-0.06762513312034078,0.042598509052183174
7858.585858585859,-0.08679446219382321,-0.0777422790202343,0.04472843450479233
7863.636363636364,-0.06975505857294995,-0.08413205537806177,0.025026624068157616
7868.686868686868,-0.06656017039403621,-0.09744408945686901,0.01437699680511182
7873.737373737374,-0.054313099041533544,-0.08839190628328009,0.01597444089456869
7878.787878787879,-0.05484558040468584,-0.08519701810436635,-0.003194888178913738
7883.838383838383,-0.05218317358892439,-0.08466453674121406,-0.026091586794462194
7888.888888888889,-0.04472843450479233,-0.08093716719914804,-0.03354632587859425
7893.939393939394,-0.04739084132055378,-0.08093716719914804,-0.0516506922257721
7898.989898989899,-0.03301384451544196,-0.06815761448349308,-0.07614483493077742
7904.040404040404,-0.04419595314164004,-0.04579339723109691,-0.08998935037273695
7909.090909090909,-0.042598509052183174,-0.019701810436634718,-0.10489882854100106
7914.141414141414,-0.05005324813631523,0.001597444089456869,-0.11448349307774228
7919.191919191919,-0.05750798722044728,0.03514376996805112,-0.13205537806176784
7924.242424242424,-0.06549520766773163,0.07827476038338659,-0.13844515441959532
7929.292929292929,-0.0777422790202343,0.10170394036208733,-0.1485623003194888
7934.343434343435,-0.09158679446219382,0.12140575079872204,-0.16187433439829607
7939.393939393939,-0.1182108626198083,0.13738019169329074,-0.1799787007454739
7944.444444444444,-0.1336528221512247,0.14270500532481364,-0.19169329073482427
7949.49494949495,-0.1501597444089457,0.13525026624068157,-0.19968051118210864
7954.545454545454,-0.1698615548455804,0.12087326943556975,-0.21405750798722045
7959.595959595959,-0.18317358892438765,0.11182108626198083,-0.2326943556975506
7964.646464646465,-0.19488817891373802,0.0825346112886049,-0.25452609158679446
7969.69696969697,-0.19968051118210864,0.05005324813631523,-0.27689030883919064
7974.747474747474,-0.19968051118210864,0.03194888178913738,-0.2939297124600639
7979.79797979798,-0.20021299254526093,0.010117145899893504,-0.30138445154419596
7984.848484848485,-0.2018104366347178,-0.003727369542066028,-0.31576144834930775
7989.898989898989,-0.1954206602768903,-0.02875399361022364,-0.32800851970181044
7994.949494949495,-0.2066027689030884,-0.04046858359957402,-0.34185303514376997
8000,-0.22790202342917998,-0.05910543130990415,-0.34451544195953143
8004.975124378109,-0.23908413205537807,-0.07082002129925452,-0.3514376996805112
8009.950248756219,-0.2731629392971246,-0.06283280085197018,-0.36687965921192756
8014.925373134329,-0.3104366347177849,-0.05484558040468584,-0.3610223642172524
8019.900497512438,-0.36261980830670926,-0.05218317358892439,-0.3769968051118211
8024.875621890547,-0.3972310969116081,-0.05218317358892439,-0.3935037273695421
8029.850746268657,-0.45420660276890307,-0.04739084132055378,-0.41054313099041534
8034.825870646766,-0.4984025559105431,-0.046858359957401494,-0.4291799787007455
8039.800995024875,-0.5298189563365282,-0.043663471778487756,-0.4579339723109691
8044.776119402985,-0.5734824281150159,-0.045260915867944625,-0.483493077742279
8049.751243781095,-0.6144834930777423,-0.046858359957401494,-0.5154419595314164
8054.726368159204,-0.6352502662406816,-0.05218317358892439,-0.5378061767838126
8059.701492537313,-0.6293929712460063,-0.05644302449414271,-0.5553780617678381
8064.6766169154225,-0.6336528221512248,-0.06549520766773163,-0.5835995740149095
8069.651741293533,-0.6373801916932907,-0.09105431309904154,-0.5782747603833865
8074.626865671642,-0.6134185303514377,-0.10702875399361023,-0.6080937167199149
8079.601990049751,-0.5947816826411075,-0.12087326943556975,-0.61395101171459
8084.577114427861,-0.5766773162939297,-0.11980830670926518,-0.625133120340788
8089.55223880597,-0.5623003194888179,-0.1485623003194888,-0.634185303514377
8094.527363184079,-0.5564430244941427,-0.16826411075612355,-0.6405750798722045
8099.502487562189,-0.5665601703940362,-0.18849840255591055,-0.661874334398296
8104.477611940299,-0.5724174653887114,-0.19968051118210864,-0.6815761448349308
8109.452736318408,-0.5846645367412141,-0.20873269435569755,-0.7135250266240681
8114.427860696517,-0.5953141640042598,-0.21565495207667731,-0.7358892438764644
8119.4029850746265,-0.6123535676251332,-0.2103301384451544,-0.7545260915867945
8124.378109452737,-0.6448349307774228,-0.2007454739084132,-0.7784877529286475
8129.353233830846,-0.6538871139510117,-0.19755058572949946,-0.8008519701810437
8134.328358208955,-0.6698615548455804,-0.1799787007454739,-0.821618743343983
8139.3034825870645,-0.6863684771033014,-0.16613418530351437,-0.8434504792332268
8144.278606965174,-0.7097976570820022,-0.15867944621938232,-0.8572949946751863
8149.253731343284,-0.7252396166134185,-0.14376996805111822,-0.8945686900958466
8154.228855721393,-0.7380191693290735,-0.13471778487752928,-0.9036208732694355
8159.203980099503,-0.7646432374866879,-0.1134185303514377,-0.9382321618743344
8164.179104477612,-0.792332268370607,-0.09850905218317359,-0.9579339723109691
8169.154228855721,-0.8264110756123536,-0.07348242811501597,-0.9845580404685836
8174.12935323383,-0.858359957401491,-0.06230031948881789,-1.0223642172523961
8179.104477611941,-0.898828541001065,-0.06549520766773163,-1.0420660276890308
8184.07960199005,-0.9414270500532481,-0.058040468583599576,-1.0809371671991481
8189.054726368159,-0.9802981895633652,-0.04898828541001065,-1.1118210862619808
8194.029850746268,-1.0292864749733759,-0.039403620873269436,-1.1634717784877529
8199.004975124379,-1.0777422790202342,-0.021831735889243878,-1.2129925452609158
8203.980099502487,-1.1304579339723109,-0.009584664536741214,-1.279552715654952
8208.955223880597,-1.1703940362087326,-0.012247071352502662,-1.3312034078807242
8213.930348258706,-1.203940362087327,-0.027689030883919063,-1.400958466453674
8218.905472636816,-1.2273695420660278,-0.045260915867944625,-1.4691160809371673
8223.880597014926,-1.2342917997870075,-0.05484558040468584,-1.5170394036208732
8228.855721393034,-1.2310969116080936,-0.0724174653887114,-1.5788072417465389
8233.830845771145,-1.2284345047923322,-0.10063897763578275,-1.6017039403620874
8238.805970149253,-1.206070287539936,-0.11608093716719915,-1.6134185303514377
8243.781094527363,-1.1741214057507987,-0.14057507987220447,-1.6304579339723109
8248.756218905473,-1.1661341853035143,-0.13471778487752928,-1.621405750798722
8253.731343283582,-1.1554845580404687,-0.12939297124600638,-1.6192758253461128
8258.706467661692,-1.1405750798722045,-0.09691160809371673,-1.6112886048988286
8263.6815920398,-1.1517571884984026,-0.04153354632587859,-1.61395101171459
8268.65671641791,-1.167199148029819,0.01863684771033014,-1.6033013844515442
8273.63184079602,-1.1815761448349307,0.06762513312034078,-1.5942492012779552
8278.606965174129,-1.20926517571885,0.10436634717784878,-1.5931842385516506
8283.58208955224,-1.2406815761448349,0.14909478168264112,-1.5841320553780618
8288.557213930348,-1.2816826411075612,0.16293929712460065,-1.5559105431309903
8293.532338308458,-1.3210862619808306,0.18796592119275826,-1.5527156549520766
8298.507462686568,-1.3796592119275826,0.1906283280085197,-1.523961661341853
8303.482587064676,-1.4307774227902024,0.1805111821086262,-1.5133120340788073
8308.457711442787,-1.4893503727369541,0.16134185303514376,-1.492545260915868
8313.432835820895,-1.5537806176783813,0.1496272630457934,-1.4664536741214058
8318.407960199005,-1.6144834930777423,0.13631522896698617,-1.448349307774228
8323.383084577114,-1.6757188498402555,0.11554845580404687,-1.433972310969116
8328.358208955224,-1.7422790202342917,0.09744408945686901,-1.4094781682641107
8333.333333333334,-1.7917997870074547,0.0724174653887114,-1.4030883919062833
8338.308457711442,-1.84185303514377,0.05591054313099041,-1.3881789137380192
8343.283582089553,-1.8748668796592118,0.041001064962726305,-1.378594249201278
8348.25870646766,-1.8998935037273696,0.036741214057507986,-1.3647497337593184
8353.233830845771,-1.9132055378061767,0.04845580404685836,-1.345580404685836
8358.208955223881,-1.9195953141640043,0.055378061767838126,-1.3296059637912674
8363.18407960199,-1.9297124600638977,0.0926517571884984,-1.317891373801917
8368.1592039801,-1.906283280085197,0.13844515441959532,-1.2896698615548456
8373.134328358208,-1.895101171458999,0.1757188498402556,-1.2880724174653888
8378.109452736318,-1.8871139510117145,0.20234291799787008,-1.2912673056443025
8383.084577114429,-1.8706070287539935,0.24014909478168264,-1.3029818956336527
8388.059701492537,-1.8509052183173589,0.2625133120340788,-1.3115015974440896
8393.034825870647,-1.829073482428115,0.2715654952076677,-1.332800851970181
8398.009950248756,-1.810436634717785,0.26517571884984026,-1.3466453674121406
8402.985074626866,-1.7779552715654952,0.26198083067092653,-1.3663471778487752
8407.960199004976,-1.7438764643237488,0.26624068157614483,-1.3753993610223643
8412.935323383084,-1.6970181043663473,0.24334398296059637,-1.3791267305644301
8417.910447761195,-1.6682641107561236,0.22470713525026625,-1.3636847710330138
8422.885572139303,-1.6331203407880723,0.20234291799787008,-1.351437699680511
8427.860696517413,-1.5867944621938233,0.17625133120340788,-1.3280085197018103
8432.835820895521,-1.5431309904153354,0.15495207667731628,-1.3083067092651757
8437.810945273632,-1.511182108626198,0.15335463258785942,-1.2747603833865815
8442.786069651742,-1.4994675186368478,0.14643237486687966,-1.2710330138445154
8447.76119402985,-1.488817891373802,0.12087326943556975,-1.2486687965921193
8452.73631840796,-1.48136315228967,0.09904153354632587,-1.2587859424920127
8457.711442786069,-1.4840255591054312,0.08945686900958466,-1.2587859424920127
8462.686567164179,-1.4808306709265175,0.08466453674121406,-1.2545260915867944
8467.66169154229,-1.4765708200212992,0.08732694355697551,-1.2460063897763578
8472.636815920398,-1.466986155484558,0.07401490947816826,-1.2396166134185302
8477.611940298508,-1.4435569755058573,0.06496272630457935,-1.2342917997870075
8482.587064676616,-1.4190628328008519,0.046858359957401494,-1.220447284345048
8487.562189054726,-1.3961661341853036,0.043663471778487756,-1.2140575079872205
8492.537313432837,-1.3509052183173589,0.025026624068157616,-1.2145899893503727
8497.512437810945,-1.3354632587859425,0.014909478168264111,-1.2028753993610224
8502.487562189055,-1.2875399361022364,0.007454739084132056,-1.200212992545261
8507.462686567163,-1.27209797657082,0.003194888178913738,-1.1884984025559104
8512.437810945274,-1.2231096911608095,0.0010649627263045794,-1.176251331203408
8517.412935323384,-1.1869009584664536,0.01650692225772098,-1.1799787007454738
8522.388059701492,-1.1501597444089458,0.009052183173588925,-1.1528221512247072
8527.363184079602,-1.1192758253461128,0.011714589989350373,-1.1421725239616614
8532.33830845771,-1.0788072417465389,-0.007987220447284345,-1.1112886048988286
8537.313432835821,-1.055378061767838,-0.008519701810436636,-1.0969116080937167
8542.288557213931,-1.0319488817891374,-0.012779552715654952,-1.0878594249201279
8547.26368159204,-1.0170394036208732,-0.005324813631522897,-1.0601703940362088
8552.23880597015,-1.0015974440894568,-0.006922257720979766,-1.049520766773163
8557.213930348258,-0.9946751863684771,-0.0026624068157614484,-1.023961661341853
8562.189054726368,-0.9973375931842385,-0.0154419595314164,-1.0095846645367412
8567.164179104477,-0.987220447284345,0.002129925452609159,-0.9984025559105432
8572.139303482587,-0.9781682641107561,-0.003727369542066028,-0.9755058572949947
8577.114427860697,-0.9760383386581469,0,-0.950479233226837
8582.089552238805,-0.9531416400425985,0.003727369542066028,-0.9259850905218318
8587.064676616916,-0.9435569755058573,-0.0026624068157614484,-0.8801916932907349
8592.039800995024,-0.9116080937167199,-0.002129925452609159,-0.8562300319488818
8597.014925373134,-0.8775292864749734,-0.005324813631522897,-0.8258785942492013
8601.990049751244,-0.8487752928647497,-0.007454739084132056,-0.7838125665601704
8606.965174129353,-0.8205537806176784,-0.006389776357827476,-0.7486687965921193
8611.940298507463,-0.7768903088391906,-0.012779552715654952,-0.711395101171459
8616.915422885571,-0.7571884984025559,-0.028221512247071354,-0.6815761448349308
8621.890547263682,-0.7220447284345048,-0.03514376996805112,-0.6363152289669861
8626.865671641792,-0.6970181043663471,-0.04419595314164004,-0.6144834930777423
8631.8407960199,-0.6826411075612353,-0.0516506922257721,-0.5804046858359957
8636.81592039801,-0.661874334398296,-0.04952076677316294,-0.5564430244941427
8641.791044776119,-0.6474973375931843,-0.0724174653887114,-0.5218317358892439
8646.766169154229,-0.6437699680511182,-0.077209797657082,-0.49307774227902024
8651.741293532337,-0.6458998935037273,-0.0878594249201278,-0.4627263045793397
8656.716417910447,-0.6320553780617678,-0.09105431309904154,-0.43503727369542067
8661.691542288558,-0.6283280085197018,-0.1033013844515442,-0.4132055378061768
8666.666666666666,-0.6288604898828541,-0.1299254526091587,-0.3977635782747604
8671.641791044776,-0.61395101171459,-0.14696485623003194,-0.3780617678381257
8676.616915422885,-0.5878594249201278,-0.17358892438764642,-0.3402555910543131
8681.592039800995,-0.5596379126730564,-0.19435569755058574,-0.312566560170394
8686.567164179105,-0.5473908413205538,-0.20340788072417465,-0.28434504792332266
8691.542288557213,-0.5197018104366348,-0.2215122470713525,-0.24866879659211927
8696.517412935324,-0.5085197018104366,-0.23588924387646432,-0.21299254526091588
8701.492537313432,-0.5,-0.25878594249201275,-0.20394036208732694
8706.467661691542,-0.48242811501597443,-0.2689030883919063,-0.1810436634717785
8711.442786069652,-0.4696485623003195,-0.2715654952076677,-0.16719914802981894
8716.41791044776,-0.4696485623003195,-0.2806176783812567,-0.15654952076677317
8721.393034825871,-0.47177848775292863,-0.2784877529286475,-0.15122470713525027
8726.36815920398,-0.46592119275825344,-0.2933972310969116,-0.1485623003194888
8731.34328358209,-0.4696485623003195,-0.30138445154419596,-0.14909478168264112
8736.3184079602,-0.4701810436634718,-0.30564430244941426,-0.14909478168264112
8741.293532338308,-0.4776357827476038,-0.3184238551650692,-0.1650692225772098
8746.268656716418,-0.4739084132055378,-0.3168264110756124,-0.17252396166134185
